{
  "resourceType": "Bundle",
  "id": "130",
  "meta": {
    "versionId": "2",
    "lastUpdated": "2020-09-14T10:57:02.894+02:00",
    "profile": [
      "http://fhir.ch/ig/ch-emed/StructureDefinition/ch-emed-document-medicationcard"
    ]
  },
  "identifier": {
    "system": "urn:ietf:rfc:3986",
    "value": "urn:uuid:544893_TST"
  },
  "type": "document",
  "timestamp": "2020-09-14T10:40:22.000+02:00",
  "entry": [
    {
      "fullUrl": "http://cistec.com/Composition/e1202517-3013-4de8-b184-8db9801275b0",
      "resource": {
        "resourceType": "Composition",
        "id": "e1202517-3013-4de8-b184-8db9801275b0",
        "language": "de-CH",
        "extension": [
          {
            "url": "http://fhir.ch/ig/ch-core/StructureDefinition/ch-ext-epr-setid",
            "valueIdentifier": {
              "system": "urn:ietf:rfc:3986",
              "value": "urn:uuid:e1202517-3013-4de8-b184-8db9801275b0"
            }
          },
          {
            "url": "http://fhir.ch/ig/ch-core/StructureDefinition/ch-ext-epr-versionnumber",
            "valueUnsignedInt": 2
          },
          {
            "url": "http://fhir.ch/ig/ch-core/StructureDefinition/ch-ext-epr-informationrecipient",
            "valueReference": {
              "reference": "Patient/TU681"
            }
          }
        ],
        "identifier": {
          "system": "urn:ietf:rfc:3986",
          "value": "urn:uuid:e1202517-3013-4de8-b184-8db9801275b0"
        },
        "status": "final",
        "type": {
          "coding": [
            {
              "system": "http://loinc.org",
              "code": "56445-0",
              "display": "Medication summary Document"
            },
            {
              "system": "http://snomed.info/sct",
              "code": "721912009",
              "display": "Medication summary document (record artifact)"
            }
          ]
        },
        "subject": {
          "reference": "Patient/TU681"
        },
        "date": "2020-09-14T10:40:22+02:00",
        "author": [
          {
            "extension": [
              {
                "url": "http://fhir.ch/ig/ch-core/StructureDefinition/ch-ext-epr-time",
                "valueDateTime": "2020-09-14T10:40:22+02:00"
              }
            ],
            "reference": "Practitioner/CISSZBIN"
          },
          {
            "reference": "Organization/COM"
          }
        ],
        "title": "Medikationsplan",
        "confidentiality": "N",
        "_confidentiality": {
          "extension": [
            {
              "url": "http://fhir.ch/ig/ch-core/StructureDefinition/ch-ext-epr-confidentialitycode",
              "valueCodeableConcept": {
                "coding": [
                  {
                    "system": "http://snomed.info/sct",
                    "code": "17621005",
                    "display": "Normally accessible"
                  }
                ]
              }
            }
          ]
        },
        "custodian": {
          "reference": "Organization/COM"
        },
        "section": [
          {
            "extension": [
              {
                "url": "http://fhir.ch/ig/ch-core/StructureDefinition/ch-ext-epr-sectionid",
                "valueIdentifier": {
                  "system": "urn:ietf:rfc:3986",
                  "value": "urn:uuid:5fb3eacf-be0d-42aa-9619-abf008c50051"
                }
              }
            ],
            "title": "Medikamentenliste",
            "code": {
              "coding": [
                {
                  "system": "http://loinc.org",
                  "code": "10160-0",
                  "display": "History of medication use"
                }
              ]
            },
            "text": {
              "status": "generated",
              "div": "<div xmlns=\"http://www.w3.org/1999/xhtml\">TODO add text</div>"
            },
            "entry": [
              {
                "reference": "MedicationStatement/AGL2181276"
              },
              {
                "reference": "MedicationStatement/AGL6132151"
              }
            ]
          }
        ]
      }
    },
    {
      "fullUrl": "http://cistec.com/Patient/TU681",
      "resource": {
        "resourceType": "Patient",
        "id": "TU681",
        "text": {
          "status": "generated",
          "div": "<div xmlns=\"http://www.w3.org/1999/xhtml\"><div class=\"hapiHeaderText\">Gebhard August <b>ANTONYOVA </b></div><table class=\"hapiPropertyTable\"><tbody><tr><td>Identifier</td><td>TU681</td></tr><tr><td>Date of birth</td><td><span>06 September 1969</span></td></tr></tbody></table></div>"
        },
        "identifier": [
          {
            "type": {
              "coding": [
                {
                  "system": "http://terminology.hl7.org/CodeSystem/v2-0203",
                  "code": "MR"
                }
              ]
            },
            "system": "http://cistec.com/DEV_COM/Patient",
            "value": "TU681"
          }
        ],
        "name": [
          {
            "family": "Antonyova",
            "given": [
              "Gebhard August"
            ]
          }
        ],
        "gender": "male",
        "birthDate": "1969-09-06"
      }
    },
    {
      "fullUrl": "http://cistec.com/Practitioner/CISSZBIN",
      "resource": {
        "resourceType": "Practitioner",
        "id": "CISSZBIN",
        "identifier": [
          {
            "system": "http://cistec.com/DEV_COM/Practitioner",
            "value": "CISSZBIN"
          },
          {
            "system": "urn:oid:2.51.1.3",
            "value": "7601007775286"
          }
        ],
        "name": [
          {
            "family": "Zbinden",
            "given": [
              "Sandro"
            ]
          }
        ],
        "gender": "male"
      }
    },
    {
      "fullUrl": "http://cistec.com/Organization/COM",
      "resource": {
        "resourceType": "Organization",
        "id": "COM",
        "identifier": [
          {
            "system": "http://cistec.com/DEV_COM/Organization",
            "value": "2.16.756.5.30.1.163.1.1"
          }
        ],
        "type": [
          {
            "coding": [
              {
                "system": "http://snomed.info/sct",
                "code": "22232009",
                "display": "Hospital"
              }
            ]
          }
        ],
        "name": "Cistec COM Spital"
      }
    },
    {
      "fullUrl": "http://cistec.com/MedicationStatement/AGL2181276",
      "resource": {
        "resourceType": "MedicationStatement",
        "id": "AGL2181276",
        "text": {
          "status": "generated",
          "div": "<div xmlns=\"http://www.w3.org/1999/xhtml\">TODO add text</div>"
        },
        "contained": [
          {
            "resourceType": "Medication",
            "id": "med",
            "code": {
              "coding": [
                {
                  "system": "urn:oid:2.51.1.1",
                    "code": "7680475030868",
                  "display": "Dafalgan Brausetabl 1 g 20 Stk"
                }
              ],
              "text": "Dafalgan Brausetabl 1 g"
            },
            "form": {
              "extension": [
                {
                  "url": "http://hl7.org/fhir/StructureDefinition/narrativeLink",
                  "valueUrl": "#mtpc.2.brandedmedication"
                }
              ],
              "coding": [
                {
                  "system": "urn:oid:0.4.0.127.0.16.1.1.2.1",
                  "code": "10222000",
                  "display": "Brausetablette"
                }
              ]
            },
            "amount": {
              "numerator": {
                "value": 20,
                "unit": "piece"
              },
              "denominator": {
                "value": 1
              }
            },
            "ingredient": [
              {
                "itemCodeableConcept": {
                  "coding": [
                    {
                      "system": "http://snomed.info/sct",
                      "code": "387517004",
                      "display": "Paracetamol "
                    }
                  ],
                  "text": "Paracetamol"
                },
                "strength": {
                  "numerator": {
                    "value": 1,
                    "unit": "g"
                  },
                  "denominator": {
                    "value": 1
                  }
                }
              }
            ]
          }
        ],
        "identifier": [
          {
            "system": "urn:ietf:rfc:3986",
            "value": "urn:uuid:AGL2181276"
          }
        ],
        "status": "active",
        "medicationReference": {
          "reference": "#med"
        },
        "subject": {
          "reference": "Patient/TU681"
        },
        "dosage": [
          {
            "extension": [
              {
                "url": "http://fhir.ch/ig/ch-emed/StructureDefinition/ch-emed-ext-dosagetype",
                "valueIdentifier": {
                  "value": "1.3.6.1.4.1.19376.1.5.3.1.4.7.1"
                }
              }
            ],
            "timing": {
              "repeat": {
                "when": [
                  "CM",
                  "HS"
                ]
              }
            },
            "route": {
              "coding": [
                {
                  "system": "urn:oid:0.4.0.127.0.16.1.1.2.1",
                  "code": "20053000",
                  "display": "zum Einnehmen"
                }
              ]
            },
            "doseAndRate": [
              {
                "doseQuantity": {
                  "value": 0.5
                }
              }
            ]
          },
          {
            "text": "0.5 zum Einnehmen (Morgens,Nachts) Tabl p.o."
          }
        ]
      }
    },
    {
      "fullUrl": "http://cistec.com/MedicationStatement/AGL6132151",
      "resource": {
        "resourceType": "MedicationStatement",
        "id": "AGL6132151",
        "text": {
          "status": "generated",
          "div": "<div xmlns=\"http://www.w3.org/1999/xhtml\">TODO add text</div>"
        },
        "contained": [
          {
            "resourceType": "Medication",
            "id": "med",
            "code": {
              "extension": [
                {
                  "url": "http://hl7.org/fhir/StructureDefinition/narrativeLink",
                  "valueUrl": "#mtpc.2.brandedmedication"
                }
              ],
              "coding": [
                {
                  "system": "urn:oid:2.51.1.1",
                  "code": "7680629110019",
                  "display": "Aspirin S Tabl 500 mg 20 Stk"
                }
              ],
              "text": "Aspirin S Tabl 500 mg"
            },
            "form": {
              "extension": [
                {
                  "url": "http://hl7.org/fhir/StructureDefinition/narrativeLink",
                  "valueUrl": "#mtpc.2.brandedmedication"
                }
              ],
              "coding": [
                {
                  "system": "urn:oid:0.4.0.127.0.16.1.1.2.1",
                  "code": "10219000",
                  "display": "Tablette"
                }
              ]
            },
            "amount": {
              "numerator": {
                "value": 20,
                "unit": "piece"
              },
              "denominator": {
                "value": 1
              }
            },
            "ingredient": [
              {
                "itemCodeableConcept": {
                  "coding": [
                    {
                      "system": "http://snomed.info/sct",
                      "code": "387458008",
                      "display": "Aspirin"
                    }
                  ],
                  "text": "Acetylsalicylsäure"
                },
                "strength": {
                  "numerator": {
                    "value": 500,
                    "unit": "mg"
                  },
                  "denominator": {
                    "value": 1
                  }
                }
              }
            ]
          }
        ],
        "identifier": [
          {
            "system": "urn:ietf:rfc:3986",
            "value": "urn:uuid:AGL6132151"
          }
        ],
        "status": "active",
        "medicationReference": {
          "reference": "#med"
        },
        "subject": {
          "reference": "Patient/TU681"
        },
        "dosage": [
          {
            "extension": [
              {
                "url": "http://fhir.ch/ig/ch-emed/StructureDefinition/ch-emed-ext-dosagetype",
                "valueIdentifier": {
                  "value": "1.3.6.1.4.1.19376.1.5.3.1.4.7.1"
                }
              }
            ],
            "timing": {
              "repeat": {
                "when": [
                  "CD"
                ]
              }
            },
            "route": {
              "coding": [
                {
                  "system": "urn:oid:0.4.0.127.0.16.1.1.2.1",
                  "code": "20053000",
                  "display": "zum Einnehmen"
                }
              ]
            },
            "doseAndRate": [
              {
                "doseQuantity": {
                  "value": 1
                }
              }
            ]
          },
          {
            "text": "1 zum Einnehmen (Mittags) Tabl p.o."
          }
        ]
      }
    }
  ]
}
